File: polcurvefit/data/example_gamry.DTA
EXPLAIN
TAG	CYCPOL
TITLE	LABEL	Cyclic Polarization Scan	Test Identifier
DATE	LABEL	15.11.2021	Date
TIME	LABEL	15:57:59	Time
NOTES	NOTES	1	Notes...

PSTAT	PSTAT	IFC1010-30110	Potentiostat
VINIT	POTEN	-1.50000E+000	F	Initial E (V)
VAPEX	POTEN	3.00000E-001	T	Apex E (V)
VFINAL	POTEN	-1.50000E+000	F	Final E (V)
ILIMIT	QUANT	1.00000E+003	Apex I (mA/cm^2)
SCANFWD	QUANT	5.00000E-001	Forward Scan (mV/s)
SCANREV	QUANT	5.00000E-001	Reverse Scan (mV/s)
SAMPLETIME	QUANT	1.00000E+000	Sample Period (s)
AREA	QUANT	1.00000E+000	Sample Area (cm^2)
DENSITY	QUANT	7.87000E+000	Density (g/cm^3)
EQUIV	QUANT	2.79200E+001	Equiv. Wt
IRCOMP	TOGGLE	F	IR Comp
EQDELAY	QUANT	0.00000E+000	Equil. Time (s)
EOC	QUANT	-0.1737256	Open Circuit (V)
ELECTRODETYPE	SELECTOR	0	Electrode Type
STRIPPING	TOGGLE	F	Used for Stripping
SEQUENCER	TOGGLE	TRUE	Run as Sequence
PSTATMODEL	IQUANT	64	Pstat Model
PSTATSECTION	LABEL	IFC1010-30110	Pstat Section
PSTATSERIALNO	LABEL	30110	Pstat Serial Number
CTRLMODE	IQUANT	1	Control Mode
ELECTROMETER	IQUANT	0	RE=0 or CS=1
IESTAB	IQUANT	2	I/E Stability
CASPEED	IQUANT	4	Control Amp Speed
CONVENTION	IQUANT	1	Current Convention
ICHRANGE	IQUANT	2	Ich Range
ICHRANGEMODE	TOGGLE	T	Ich Auto Range
ICHOFFSETENABLE	TOGGLE	F	Ich Offset Enable
ICHOFFSET	QUANT	0	Ich Offset (V)
ICHFILTER	IQUANT	4	Ich Filter
VCHRANGE	IQUANT	3	Vch Range
VCHRANGEMODE	TOGGLE	T	Vch Auto Range
VCHOFFSETENABLE	TOGGLE	F	Vch Offset Enable
VCHOFFSET	QUANT	0	Vch Offset (V)
VCHFILTER	IQUANT	4	Vch Filter
IERANGELOWERLIMIT	IQUANT	4	I/E Range Lower Limit
IERANGEMODE	TOGGLE	T	I/E AutoRange
IERANGE	IQUANT	11	I/E Range
ACHSELECT	IQUANT	0	Ach Select
ACHRANGE	IQUANT	2	Ach Range
ACHOFFSETENABLE	TOGGLE	F	Ach Offset Enable
ACHOFFSET	QUANT	0	Ach Offset (V)
ACHFILTER	IQUANT	1	Ach Filter
SENSECABLEID	IQUANT	14	Sense Cable ID
PWRCABLEID	IQUANT	14	Power Cable ID
DCCALDATE	LABEL	9/16/2021	DC Calibration Date
ACCALDATE	LABEL		AC Calibration Date
FRAMEWORKVERSION	LABEL	7.8.6	Framework Version
INSTRUMENTVERSION	LABEL	4.50	Instrument Version
CURVE	TABLE	6507
	Pt	T	Vf	Im	Vu	Sig	Ach	IERange	Over	Temp
	#	s	V vs. Ref.	A	V	V	V	#	bits	deg C
	0	1	-1.50013E+000	-9.61514E-004	0.00000E+000	-1.50000E+000	0.00000E+000	10	...........	1400.82
	7	8	-1.49672E+000	-9.08892E-004	0.00000E+000	-1.49650E+000	0.00000E+000	10	...........	1401.17
	14	15	-1.49323E+000	-8.84221E-004	0.00000E+000	-1.49300E+000	0.00000E+000	10	...........	1401.17
	21	22	-1.48972E+000	-8.65838E-004	0.00000E+000	-1.48950E+000	0.00000E+000	10	...........	1401.17
	28	29	-1.48621E+000	-8.50333E-004	0.00000E+000	-1.48600E+000	0.00000E+000	10	...........	1401.17
	35	36	-1.48271E+000	-8.36461E-004	0.00000E+000	-1.48250E+000	0.00000E+000	10	...........	1401.17
	42	43	-1.47922E+000	-8.24067E-004	0.00000E+000	-1.47900E+000	0.00000E+000	10	...........	1401.17
	49	50	-1.47573E+000	-8.12336E-004	0.00000E+000	-1.47550E+000	0.00000E+000	10	...........	1401.17
	56	57	-1.47219E+000	-7.99323E-004	0.00000E+000	-1.47200E+000	0.00000E+000	9	...........	1401.17
	63	64	-1.46870E+000	-7.89224E-004	0.00000E+000	-1.46850E+000	0.00000E+000	9	...........	1401.17
	70	71	-1.46520E+000	-7.79748E-004	0.00000E+000	-1.46500E+000	0.00000E+000	9	...........	1401.17
	77	78	-1.46171E+000	-7.70879E-004	0.00000E+000	-1.46150E+000	0.00000E+000	9	...........	1401.17
	84	85	-1.45820E+000	-7.62250E-004	0.00000E+000	-1.45800E+000	0.00000E+000	9	...........	1401.17
	91	92	-1.45470E+000	-7.53844E-004	0.00000E+000	-1.45450E+000	0.00000E+000	9	...........	1401.17
	98	99	-1.45121E+000	-7.45642E-004	0.00000E+000	-1.45100E+000	0.00000E+000	9	...........	1401.17
	105	106	-1.44770E+000	-7.37669E-004	0.00000E+000	-1.44750E+000	0.00000E+000	9	...........	1401.17
	112	113	-1.44419E+000	-7.29857E-004	0.00000E+000	-1.44400E+000	0.00000E+000	9	...........	1401.17
	119	120	-1.44068E+000	-7.22147E-004	0.00000E+000	-1.44050E+000	0.00000E+000	9	...........	1401.17
	126	127	-1.43719E+000	-7.14608E-004	0.00000E+000	-1.43700E+000	0.00000E+000	9	...........	1401.17
	133	134	-1.43372E+000	-7.07402E-004	0.00000E+000	-1.43350E+000	0.00000E+000	9	...........	1401.17
	140	141	-1.43021E+000	-7.00104E-004	0.00000E+000	-1.43000E+000	0.00000E+000	9	...........	1401.17
	147	148	-1.42672E+000	-6.92754E-004	0.00000E+000	-1.42650E+000	0.00000E+000	9	...........	1401.17
	154	155	-1.42321E+000	-6.85872E-004	0.00000E+000	-1.42300E+000	0.00000E+000	9	...........	1401.17
	161	162	-1.41969E+000	-6.78739E-004	0.00000E+000	-1.41950E+000	0.00000E+000	9	...........	1401.17
	168	169	-1.41621E+000	-6.71651E-004	0.00000E+000	-1.41600E+000	0.00000E+000	9	...........	1401.17
	175	176	-1.41271E+000	-6.64886E-004	0.00000E+000	-1.41250E+000	0.00000E+000	9	...........	1401.17
	182	183	-1.40919E+000	-6.57958E-004	0.00000E+000	-1.40900E+000	0.00000E+000	9	...........	1401.17
	189	190	-1.40569E+000	-6.50507E-004	0.00000E+000	-1.40550E+000	0.00000E+000	9	...........	1401.17
	196	197	-1.40220E+000	-6.43420E-004	0.00000E+000	-1.40200E+000	0.00000E+000	9	...........	1401.17
	203	204	-1.39871E+000	-6.36281E-004	0.00000E+000	-1.39850E+000	0.00000E+000	9	...........	1401.17
	210	211	-1.39519E+000	-6.30309E-004	0.00000E+000	-1.39500E+000	0.00000E+000	9	...........	1401.17
	217	218	-1.39171E+000	-6.30973E-004	0.00000E+000	-1.39150E+000	0.00000E+000	9	...........	1401.17
	224	225	-1.38819E+000	-6.23514E-004	0.00000E+000	-1.38800E+000	0.00000E+000	9	...........	1401.17
	231	232	-1.38468E+000	-6.16005E-004	0.00000E+000	-1.38450E+000	0.00000E+000	9	...........	1401.17
	238	239	-1.38118E+000	-6.08881E-004	0.00000E+000	-1.38100E+000	0.00000E+000	9	...........	1401.17
	245	246	-1.37768E+000	-6.02112E-004	0.00000E+000	-1.37750E+000	0.00000E+000	9	...........	1401.17
	252	253	-1.37419E+000	-5.95061E-004	0.00000E+000	-1.37400E+000	0.00000E+000	9	...........	1401.17
	259	260	-1.37068E+000	-5.87858E-004	0.00000E+000	-1.37050E+000	0.00000E+000	9	...........	1401.17
	266	267	-1.36719E+000	-5.80760E-004	0.00000E+000	-1.36700E+000	0.00000E+000	9	...........	1401.17
	273	274	-1.36368E+000	-5.73574E-004	0.00000E+000	-1.36350E+000	0.00000E+000	9	...........	1401.17
	280	281	-1.36019E+000	-5.66610E-004	0.00000E+000	-1.36000E+000	0.00000E+000	9	...........	1401.17
	287	288	-1.35666E+000	-5.59837E-004	0.00000E+000	-1.35650E+000	0.00000E+000	9	...........	1401.17
	294	295	-1.35317E+000	-5.52994E-004	0.00000E+000	-1.35300E+000	0.00000E+000	9	...........	1401.17
	301	302	-1.34969E+000	-5.46390E-004	0.00000E+000	-1.34950E+000	0.00000E+000	9	...........	1401.17
	308	309	-1.34619E+000	-5.39440E-004	0.00000E+000	-1.34600E+000	0.00000E+000	9	...........	1401.17
	315	316	-1.34267E+000	-5.32705E-004	0.00000E+000	-1.34250E+000	0.00000E+000	9	...........	1401.08
	322	323	-1.33917E+000	-5.26685E-004	0.00000E+000	-1.33900E+000	0.00000E+000	9	...........	1401.17
	329	330	-1.33568E+000	-5.19911E-004	0.00000E+000	-1.33550E+000	0.00000E+000	9	...........	1401.17
	336	337	-1.33216E+000	-5.13207E-004	0.00000E+000	-1.33200E+000	0.00000E+000	9	...........	1401.08
	343	344	-1.32868E+000	-5.06240E-004	0.00000E+000	-1.32850E+000	0.00000E+000	9	...........	1401.08
	350	351	-1.32517E+000	-4.99615E-004	0.00000E+000	-1.32500E+000	0.00000E+000	9	...........	1401.08
	357	358	-1.32168E+000	-4.92808E-004	0.00000E+000	-1.32150E+000	0.00000E+000	9	...........	1401.08
	364	365	-1.31818E+000	-4.86059E-004	0.00000E+000	-1.31800E+000	0.00000E+000	9	...........	1401.08
	371	372	-1.31468E+000	-4.78823E-004	0.00000E+000	-1.31450E+000	0.00000E+000	9	...........	1401.17
	378	379	-1.31117E+000	-4.71760E-004	0.00000E+000	-1.31100E+000	0.00000E+000	9	...........	1401.08
	385	386	-1.30766E+000	-4.64812E-004	0.00000E+000	-1.30750E+000	0.00000E+000	9	...........	1401.08
	392	393	-1.30416E+000	-4.58076E-004	0.00000E+000	-1.30400E+000	0.00000E+000	9	...........	1401.08
	399	400	-1.30068E+000	-4.51524E-004	0.00000E+000	-1.30050E+000	0.00000E+000	9	...........	1401.08
	406	407	-1.29718E+000	-4.44938E-004	0.00000E+000	-1.29700E+000	0.00000E+000	9	...........	1401.17
	413	414	-1.29366E+000	-4.38300E-004	0.00000E+000	-1.29350E+000	0.00000E+000	9	...........	1401.08
	420	421	-1.29017E+000	-4.31805E-004	0.00000E+000	-1.29000E+000	0.00000E+000	9	...........	1401.08
	427	428	-1.28668E+000	-4.25430E-004	0.00000E+000	-1.28650E+000	0.00000E+000	9	...........	1401.17
	434	435	-1.28319E+000	-4.18971E-004	0.00000E+000	-1.28300E+000	0.00000E+000	9	...........	1401.08
	441	442	-1.27967E+000	-4.12501E-004	0.00000E+000	-1.27950E+000	0.00000E+000	9	...........	1401.08
	448	449	-1.27617E+000	-4.06330E-004	0.00000E+000	-1.27600E+000	0.00000E+000	9	...........	1401.08
	455	456	-1.27268E+000	-4.00205E-004	0.00000E+000	-1.27250E+000	0.00000E+000	9	...........	1401.08
	462	463	-1.26918E+000	-3.96314E-004	0.00000E+000	-1.26900E+000	0.00000E+000	9	...........	1401.08
	469	470	-1.26566E+000	-3.90315E-004	0.00000E+000	-1.26550E+000	0.00000E+000	9	...........	1401.08
	476	477	-1.26217E+000	-3.84157E-004	0.00000E+000	-1.26200E+000	0.00000E+000	9	...........	1401.17
	483	484	-1.25867E+000	-3.78428E-004	0.00000E+000	-1.25850E+000	0.00000E+000	9	...........	1401.08
	490	491	-1.25517E+000	-3.72577E-004	0.00000E+000	-1.25500E+000	0.00000E+000	9	...........	1401.17
	497	498	-1.25167E+000	-3.66729E-004	0.00000E+000	-1.25150E+000	0.00000E+000	9	...........	1401.08
	504	505	-1.24817E+000	-3.61191E-004	0.00000E+000	-1.24800E+000	0.00000E+000	9	...........	1401.08
	511	512	-1.24467E+000	-3.55299E-004	0.00000E+000	-1.24450E+000	0.00000E+000	9	...........	1401.08
	518	519	-1.24116E+000	-3.49570E-004	0.00000E+000	-1.24100E+000	0.00000E+000	9	...........	1401.08
	525	526	-1.23767E+000	-3.43979E-004	0.00000E+000	-1.23750E+000	0.00000E+000	9	...........	1401.08
	532	533	-1.23416E+000	-3.38623E-004	0.00000E+000	-1.23400E+000	0.00000E+000	9	...........	1401.08
	539	540	-1.23066E+000	-3.33412E-004	0.00000E+000	-1.23050E+000	0.00000E+000	9	...........	1401.08
	546	547	-1.22715E+000	-3.28279E-004	0.00000E+000	-1.22700E+000	0.00000E+000	9	...........	1401.08
	553	554	-1.22367E+000	-3.22965E-004	0.00000E+000	-1.22350E+000	0.00000E+000	9	...........	1401.17
	560	561	-1.22016E+000	-3.19581E-004	0.00000E+000	-1.22000E+000	0.00000E+000	9	...........	1401.08
	567	568	-1.21665E+000	-3.14769E-004	0.00000E+000	-1.21650E+000	0.00000E+000	9	...........	1401.08
	574	575	-1.21315E+000	-3.09863E-004	0.00000E+000	-1.21300E+000	0.00000E+000	9	...........	1401.17
	581	582	-1.20965E+000	-3.04965E-004	0.00000E+000	-1.20950E+000	0.00000E+000	9	...........	1401.08
	588	589	-1.20615E+000	-3.00708E-004	0.00000E+000	-1.20600E+000	0.00000E+000	9	...........	1401.08
	595	596	-1.20264E+000	-2.95914E-004	0.00000E+000	-1.20250E+000	0.00000E+000	9	...........	1401.08
	602	603	-1.19915E+000	-2.91162E-004	0.00000E+000	-1.19900E+000	0.00000E+000	9	...........	1401.17
	609	610	-1.19565E+000	-2.86670E-004	0.00000E+000	-1.19550E+000	0.00000E+000	9	...........	1401.08
	616	617	-1.19215E+000	-2.82056E-004	0.00000E+000	-1.19200E+000	0.00000E+000	9	...........	1401.08
	623	624	-1.18863E+000	-2.77669E-004	0.00000E+000	-1.18850E+000	0.00000E+000	9	...........	1401.08
	630	631	-1.18514E+000	-2.73530E-004	0.00000E+000	-1.18500E+000	0.00000E+000	9	...........	1401.08
	637	638	-1.18165E+000	-2.69283E-004	0.00000E+000	-1.18150E+000	0.00000E+000	9	...........	1401.08
	644	645	-1.17814E+000	-2.65001E-004	0.00000E+000	-1.17800E+000	0.00000E+000	9	...........	1401.08
	651	652	-1.17464E+000	-2.60818E-004	0.00000E+000	-1.17450E+000	0.00000E+000	9	...........	1401.08
	658	659	-1.17114E+000	-2.56819E-004	0.00000E+000	-1.17100E+000	0.00000E+000	9	...........	1401.08
	665	666	-1.16765E+000	-2.52841E-004	0.00000E+000	-1.16750E+000	0.00000E+000	9	...........	1401.08
	672	673	-1.16414E+000	-2.48804E-004	0.00000E+000	-1.16400E+000	0.00000E+000	9	...........	1401.08
	679	680	-1.16064E+000	-2.44926E-004	0.00000E+000	-1.16050E+000	0.00000E+000	9	...........	1401.08
	686	687	-1.15714E+000	-2.41085E-004	0.00000E+000	-1.15700E+000	0.00000E+000	9	...........	1401.08
	693	694	-1.15363E+000	-2.37664E-004	0.00000E+000	-1.15350E+000	0.00000E+000	9	...........	1401.08
	700	701	-1.15012E+000	-2.34127E-004	0.00000E+000	-1.15000E+000	0.00000E+000	9	...........	1401.08
	707	708	-1.14664E+000	-2.30521E-004	0.00000E+000	-1.14650E+000	0.00000E+000	9	...........	1401.08
	714	715	-1.14313E+000	-2.26896E-004	0.00000E+000	-1.14300E+000	0.00000E+000	9	...........	1401.08
	721	722	-1.13962E+000	-2.23469E-004	0.00000E+000	-1.13950E+000	0.00000E+000	9	...........	1401.08
	728	729	-1.13613E+000	-2.19924E-004	0.00000E+000	-1.13600E+000	0.00000E+000	9	...........	1401.08
	735	736	-1.13263E+000	-2.16549E-004	0.00000E+000	-1.13250E+000	0.00000E+000	9	...........	1401.08
	742	743	-1.12913E+000	-2.13209E-004	0.00000E+000	-1.12900E+000	0.00000E+000	9	...........	1401.00
	749	750	-1.12562E+000	-2.09966E-004	0.00000E+000	-1.12550E+000	0.00000E+000	9	...........	1401.08
	756	757	-1.12212E+000	-2.06630E-004	0.00000E+000	-1.12200E+000	0.00000E+000	9	...........	1401.08
	763	764	-1.11863E+000	-2.03300E-004	0.00000E+000	-1.11850E+000	0.00000E+000	9	...........	1401.08
	770	771	-1.11513E+000	-2.00202E-004	0.00000E+000	-1.11500E+000	0.00000E+000	9	...........	1401.08
	777	778	-1.11163E+000	-1.97035E-004	0.00000E+000	-1.11150E+000	0.00000E+000	9	...........	1401.08
	784	785	-1.10812E+000	-1.94015E-004	0.00000E+000	-1.10800E+000	0.00000E+000	9	...........	1401.08
	791	792	-1.10462E+000	-1.91031E-004	0.00000E+000	-1.10450E+000	0.00000E+000	9	...........	1401.08
	798	799	-1.10111E+000	-1.88051E-004	0.00000E+000	-1.10100E+000	0.00000E+000	9	...........	1401.00
	805	806	-1.09762E+000	-1.85226E-004	0.00000E+000	-1.09750E+000	0.00000E+000	9	...........	1401.08
	812	813	-1.09414E+000	-1.82274E-004	0.00000E+000	-1.09400E+000	0.00000E+000	9	...........	1401.08
	819	820	-1.09064E+000	-1.79390E-004	0.00000E+000	-1.09050E+000	0.00000E+000	9	...........	1401.00
	826	827	-1.08712E+000	-1.76423E-004	0.00000E+000	-1.08700E+000	0.00000E+000	9	...........	1401.08
	833	834	-1.08363E+000	-1.73761E-004	0.00000E+000	-1.08350E+000	0.00000E+000	9	...........	1401.00
	840	841	-1.08013E+000	-1.71093E-004	0.00000E+000	-1.08000E+000	0.00000E+000	9	...........	1401.08
	847	848	-1.07662E+000	-1.68296E-004	0.00000E+000	-1.07650E+000	0.00000E+000	9	...........	1401.00
	854	855	-1.07311E+000	-1.65748E-004	0.00000E+000	-1.07300E+000	0.00000E+000	9	...........	1401.00
	861	862	-1.06961E+000	-1.63040E-004	0.00000E+000	-1.06950E+000	0.00000E+000	9	...........	1401.00
	868	869	-1.06613E+000	-1.60378E-004	0.00000E+000	-1.06600E+000	0.00000E+000	9	...........	1401.00
	875	876	-1.06261E+000	-1.67930E-004	0.00000E+000	-1.06250E+000	0.00000E+000	9	...........	1401.08
	882	883	-1.05912E+000	-1.65567E-004	0.00000E+000	-1.05900E+000	0.00000E+000	9	...........	1401.00
	889	890	-1.05561E+000	-1.62330E-004	0.00000E+000	-1.05550E+000	0.00000E+000	9	...........	1401.00
	896	897	-1.05212E+000	-1.59092E-004	0.00000E+000	-1.05200E+000	0.00000E+000	9	...........	1401.08
	903	904	-1.04859E+000	-1.55813E-004	0.00000E+000	-1.04850E+000	0.00000E+000	9	...........	1401.00
	910	911	-1.04512E+000	-1.52643E-004	0.00000E+000	-1.04500E+000	0.00000E+000	9	...........	1401.00
	917	918	-1.04161E+000	-1.49773E-004	0.00000E+000	-1.04150E+000	0.00000E+000	9	...........	1401.00
	924	925	-1.03811E+000	-1.46819E-004	0.00000E+000	-1.03800E+000	0.00000E+000	9	...........	1401.00
	931	932	-1.03459E+000	-1.43930E-004	0.00000E+000	-1.03450E+000	0.00000E+000	9	...........	1401.00
	938	939	-1.03110E+000	-1.41068E-004	0.00000E+000	-1.03100E+000	0.00000E+000	9	...........	1401.00
	945	946	-1.02761E+000	-1.38453E-004	0.00000E+000	-1.02750E+000	0.00000E+000	9	...........	1401.00
	952	953	-1.02411E+000	-1.35892E-004	0.00000E+000	-1.02400E+000	0.00000E+000	9	...........	1401.00
	959	960	-1.02063E+000	-1.33404E-004	0.00000E+000	-1.02050E+000	0.00000E+000	9	...........	1401.00
	966	967	-1.01712E+000	-1.30841E-004	0.00000E+000	-1.01700E+000	0.00000E+000	9	...........	1401.00
	973	974	-1.01362E+000	-1.28400E-004	0.00000E+000	-1.01350E+000	0.00000E+000	9	...........	1401.00
	980	981	-1.01011E+000	-1.26060E-004	0.00000E+000	-1.01000E+000	0.00000E+000	9	...........	1401.00
	987	988	-1.00662E+000	-1.23627E-004	0.00000E+000	-1.00650E+000	0.00000E+000	9	...........	1401.00
	994	995	-1.00311E+000	-1.21285E-004	0.00000E+000	-1.00300E+000	0.00000E+000	9	...........	1401.00
	1001	1002	-9.99605E-001	-1.19021E-004	0.00000E+000	-9.99500E-001	0.00000E+000	9	...........	1401.00
	1008	1009	-9.96109E-001	-1.16831E-004	0.00000E+000	-9.96000E-001	0.00000E+000	9	...........	1401.00
	1015	1016	-9.92619E-001	-1.14561E-004	0.00000E+000	-9.92500E-001	0.00000E+000	9	...........	1401.00
	1022	1023	-9.89122E-001	-1.12385E-004	0.00000E+000	-9.89000E-001	0.00000E+000	9	...........	1401.00
	1029	1030	-9.85606E-001	-1.10221E-004	0.00000E+000	-9.85500E-001	0.00000E+000	9	...........	1401.00
	1036	1037	-9.82114E-001	-1.08146E-004	0.00000E+000	-9.82000E-001	0.00000E+000	9	...........	1401.00
	1043	1044	-9.78601E-001	-1.05941E-004	0.00000E+000	-9.78500E-001	0.00000E+000	9	...........	1401.00
	1050	1051	-9.75104E-001	-1.03996E-004	0.00000E+000	-9.75000E-001	0.00000E+000	9	...........	1401.00
	1057	1058	-9.71593E-001	-1.01969E-004	0.00000E+000	-9.71500E-001	0.00000E+000	9	...........	1401.00
	1064	1065	-9.68099E-001	-9.99667E-005	0.00000E+000	-9.68000E-001	0.00000E+000	9	...........	1401.00
	1071	1072	-9.64608E-001	-9.79919E-005	0.00000E+000	-9.64500E-001	0.00000E+000	9	...........	1401.00
	1078	1079	-9.61099E-001	-9.60335E-005	0.00000E+000	-9.61000E-001	0.00000E+000	9	...........	1401.00
	1085	1086	-9.57587E-001	-9.41408E-005	0.00000E+000	-9.57500E-001	0.00000E+000	9	...........	1401.00
	1092	1093	-9.54090E-001	-9.22245E-005	0.00000E+000	-9.54000E-001	0.00000E+000	9	...........	1401.00
	1099	1100	-9.50599E-001	-9.04957E-005	0.00000E+000	-9.50500E-001	0.00000E+000	9	...........	1401.00
	1106	1107	-9.47085E-001	-8.86836E-005	0.00000E+000	-9.47000E-001	0.00000E+000	9	...........	1401.00
	1113	1114	-9.43596E-001	-8.68697E-005	0.00000E+000	-9.43500E-001	0.00000E+000	9	...........	1401.00
	1120	1121	-9.40112E-001	-8.51533E-005	0.00000E+000	-9.40000E-001	0.00000E+000	9	...........	1401.00
	1127	1128	-9.36594E-001	-8.33766E-005	0.00000E+000	-9.36500E-001	0.00000E+000	9	...........	1400.91
	1134	1135	-9.33085E-001	-8.17057E-005	0.00000E+000	-9.33000E-001	0.00000E+000	9	...........	1401.00
	1141	1142	-9.29579E-001	-8.01419E-005	0.00000E+000	-9.29500E-001	0.00000E+000	8	...........	1401.00
	1148	1149	-9.26073E-001	-7.84825E-005	0.00000E+000	-9.26000E-001	0.00000E+000	8	...........	1401.00
	1155	1156	-9.22569E-001	-7.68567E-005	0.00000E+000	-9.22500E-001	0.00000E+000	8	...........	1401.00
	1162	1163	-9.19067E-001	-7.53468E-005	0.00000E+000	-9.19000E-001	0.00000E+000	8	...........	1401.00
	1169	1170	-9.15586E-001	-7.38205E-005	0.00000E+000	-9.15500E-001	0.00000E+000	8	...........	1401.00
	1176	1177	-9.12088E-001	-7.23107E-005	0.00000E+000	-9.12000E-001	0.00000E+000	8	...........	1401.00
	1183	1184	-9.08572E-001	-7.08101E-005	0.00000E+000	-9.08500E-001	0.00000E+000	8	...........	1401.00
	1190	1191	-9.05069E-001	-6.93866E-005	0.00000E+000	-9.05000E-001	0.00000E+000	8	...........	1401.08
	1197	1198	-9.01580E-001	-6.79907E-005	0.00000E+000	-9.01500E-001	0.00000E+000	8	...........	1401.00
	1204	1205	-8.98082E-001	-6.65287E-005	0.00000E+000	-8.98000E-001	0.00000E+000	8	...........	1401.00
	1211	1212	-8.94571E-001	-6.51642E-005	0.00000E+000	-8.94500E-001	0.00000E+000	8	...........	1401.00
	1218	1219	-8.91099E-001	-6.38107E-005	0.00000E+000	-8.91000E-001	0.00000E+000	8	...........	1401.00
	1225	1226	-8.87589E-001	-6.24770E-005	0.00000E+000	-8.87500E-001	0.00000E+000	8	...........	1401.00
	1232	1233	-8.84108E-001	-6.12129E-005	0.00000E+000	-8.84000E-001	0.00000E+000	8	...........	1401.00
	1239	1240	-8.80586E-001	-5.98914E-005	0.00000E+000	-8.80500E-001	0.00000E+000	8	...........	1401.00
	1246	1247	-8.77078E-001	-5.86276E-005	0.00000E+000	-8.77000E-001	0.00000E+000	8	...........	1401.00
	1253	1254	-8.73593E-001	-5.74237E-005	0.00000E+000	-8.73500E-001	0.00000E+000	8	...........	1401.00
	1260	1261	-8.70073E-001	-5.61920E-005	0.00000E+000	-8.70000E-001	0.00000E+000	8	...........	1401.00
	1267	1268	-8.66579E-001	-5.50635E-005	0.00000E+000	-8.66500E-001	0.00000E+000	8	...........	1401.00
	1274	1275	-8.63087E-001	-5.39376E-005	0.00000E+000	-8.63000E-001	0.00000E+000	8	...........	1401.00
	1281	1282	-8.59586E-001	-5.28036E-005	0.00000E+000	-8.59500E-001	0.00000E+000	8	...........	1401.00
	1288	1289	-8.56082E-001	-5.17282E-005	0.00000E+000	-8.56000E-001	0.00000E+000	8	...........	1401.00
	1295	1296	-8.52578E-001	-5.07071E-005	0.00000E+000	-8.52500E-001	0.00000E+000	8	...........	1401.00
	1302	1303	-8.49072E-001	-4.96348E-005	0.00000E+000	-8.49000E-001	0.00000E+000	8	...........	1401.00
	1309	1310	-8.45573E-001	-4.86788E-005	0.00000E+000	-8.45500E-001	0.00000E+000	8	...........	1400.91
	1316	1317	-8.42081E-001	-4.77503E-005	0.00000E+000	-8.42000E-001	0.00000E+000	8	...........	1401.00
	1323	1324	-8.38570E-001	-4.68026E-005	0.00000E+000	-8.38500E-001	0.00000E+000	8	...........	1401.00
	1330	1331	-8.35076E-001	-4.59558E-005	0.00000E+000	-8.35000E-001	0.00000E+000	8	...........	1401.00
	1337	1338	-8.31563E-001	-4.50529E-005	0.00000E+000	-8.31500E-001	0.00000E+000	8	...........	1401.00
	1344	1345	-8.28063E-001	-4.42291E-005	0.00000E+000	-8.28000E-001	0.00000E+000	8	...........	1400.91
	1351	1352	-8.24572E-001	-4.34430E-005	0.00000E+000	-8.24500E-001	0.00000E+000	8	...........	1401.00
	1358	1359	-8.21074E-001	-4.26626E-005	0.00000E+000	-8.21000E-001	0.00000E+000	8	...........	1401.00
	1365	1366	-8.17566E-001	-4.19279E-005	0.00000E+000	-8.17500E-001	0.00000E+000	8	...........	1401.00
	1372	1373	-8.14082E-001	-4.11822E-005	0.00000E+000	-8.14000E-001	0.00000E+000	8	...........	1401.00
	1379	1380	-8.10568E-001	-4.04894E-005	0.00000E+000	-8.10500E-001	0.00000E+000	8	...........	1401.00
	1386	1387	-8.07079E-001	-3.97675E-005	0.00000E+000	-8.07000E-001	0.00000E+000	8	...........	1401.00
	1393	1394	-8.03561E-001	-3.91197E-005	0.00000E+000	-8.03500E-001	0.00000E+000	8	...........	1401.00
	1400	1401	-8.00061E-001	-3.84916E-005	0.00000E+000	-8.00000E-001	0.00000E+000	8	...........	1401.00
	1407	1408	-7.96574E-001	-3.78757E-005	0.00000E+000	-7.96500E-001	0.00000E+000	8	...........	1401.00
	1414	1415	-7.93054E-001	-3.72685E-005	0.00000E+000	-7.93000E-001	0.00000E+000	8	...........	1401.00
	1421	1422	-7.89567E-001	-3.67162E-005	0.00000E+000	-7.89500E-001	0.00000E+000	8	...........	1401.00
	1428	1429	-7.86063E-001	-3.61372E-005	0.00000E+000	-7.86000E-001	0.00000E+000	8	...........	1400.91
	1435	1436	-7.82565E-001	-3.56201E-005	0.00000E+000	-7.82500E-001	0.00000E+000	8	...........	1401.00
	1442	1443	-7.79052E-001	-3.51112E-005	0.00000E+000	-7.79000E-001	0.00000E+000	8	...........	1401.00
	1449	1450	-7.75562E-001	-3.46141E-005	0.00000E+000	-7.75500E-001	0.00000E+000	8	...........	1400.91
	1456	1457	-7.72065E-001	-3.41160E-005	0.00000E+000	-7.72000E-001	0.00000E+000	8	...........	1400.91
	1463	1464	-7.68541E-001	-3.36722E-005	0.00000E+000	-7.68500E-001	0.00000E+000	8	...........	1401.00
	1470	1471	-7.65061E-001	-3.31947E-005	0.00000E+000	-7.65000E-001	0.00000E+000	8	...........	1400.91
	1477	1478	-7.61554E-001	-3.27681E-005	0.00000E+000	-7.61500E-001	0.00000E+000	8	...........	1400.91
	1484	1485	-7.58054E-001	-3.23976E-005	0.00000E+000	-7.58000E-001	0.00000E+000	8	...........	1400.91
	1491	1492	-7.54551E-001	-3.19596E-005	0.00000E+000	-7.54500E-001	0.00000E+000	8	...........	1400.91
	1498	1499	-7.51043E-001	-3.16027E-005	0.00000E+000	-7.51000E-001	0.00000E+000	8	...........	1400.91
	1505	1506	-7.47549E-001	-3.12224E-005	0.00000E+000	-7.47500E-001	0.00000E+000	8	...........	1400.91
	1512	1513	-7.44046E-001	-3.08639E-005	0.00000E+000	-7.44000E-001	0.00000E+000	8	...........	1400.91
	1519	1520	-7.40543E-001	-3.04869E-005	0.00000E+000	-7.40500E-001	0.00000E+000	8	...........	1400.91
	1526	1527	-7.37047E-001	-3.01495E-005	0.00000E+000	-7.37000E-001	0.00000E+000	8	...........	1400.91
	1533	1534	-7.33538E-001	-2.98061E-005	0.00000E+000	-7.33500E-001	0.00000E+000	8	...........	1400.91
	1540	1541	-7.30029E-001	-2.94683E-005	0.00000E+000	-7.30000E-001	0.00000E+000	8	...........	1400.91
	1547	1548	-7.26536E-001	-2.91528E-005	0.00000E+000	-7.26500E-001	0.00000E+000	8	...........	1400.91
	1554	1555	-7.23034E-001	-2.88317E-005	0.00000E+000	-7.23000E-001	0.00000E+000	8	...........	1400.91
	1561	1562	-7.19546E-001	-2.85503E-005	0.00000E+000	-7.19500E-001	0.00000E+000	8	...........	1400.91
	1568	1569	-7.16025E-001	-2.81877E-005	0.00000E+000	-7.16000E-001	0.00000E+000	8	...........	1400.91
	1575	1576	-7.12537E-001	-2.78681E-005	0.00000E+000	-7.12500E-001	0.00000E+000	8	...........	1400.91
	1582	1583	-7.09039E-001	-2.75594E-005	0.00000E+000	-7.09000E-001	0.00000E+000	8	...........	1400.91
	1589	1590	-7.05551E-001	-2.72435E-005	0.00000E+000	-7.05500E-001	0.00000E+000	8	...........	1400.91
	1596	1597	-7.02032E-001	-2.69191E-005	0.00000E+000	-7.02000E-001	0.00000E+000	8	...........	1400.91
	1603	1604	-6.98545E-001	-2.66207E-005	0.00000E+000	-6.98500E-001	0.00000E+000	8	...........	1400.91
	1610	1611	-6.95038E-001	-2.63133E-005	0.00000E+000	-6.95000E-001	0.00000E+000	8	...........	1400.91
	1617	1618	-6.91522E-001	-2.60001E-005	0.00000E+000	-6.91500E-001	0.00000E+000	8	...........	1400.91
	1624	1625	-6.88037E-001	-2.56908E-005	0.00000E+000	-6.88000E-001	0.00000E+000	8	...........	1400.91
	1631	1632	-6.84544E-001	-2.53988E-005	0.00000E+000	-6.84500E-001	0.00000E+000	8	...........	1400.91
	1638	1639	-6.81048E-001	-2.51225E-005	0.00000E+000	-6.81000E-001	0.00000E+000	8	...........	1400.91
	1645	1646	-6.77534E-001	-2.48361E-005	0.00000E+000	-6.77500E-001	0.00000E+000	8	...........	1400.91
	1652	1653	-6.74030E-001	-2.45633E-005	0.00000E+000	-6.74000E-001	0.00000E+000	8	...........	1400.91
	1659	1660	-6.70544E-001	-2.42853E-005	0.00000E+000	-6.70500E-001	0.00000E+000	8	...........	1400.91
	1666	1667	-6.67047E-001	-2.40289E-005	0.00000E+000	-6.67000E-001	0.00000E+000	8	...........	1400.91
	1673	1674	-6.63527E-001	-2.37446E-005	0.00000E+000	-6.63500E-001	0.00000E+000	8	...........	1400.91
	1680	1681	-6.60040E-001	-2.34917E-005	0.00000E+000	-6.60000E-001	0.00000E+000	8	...........	1400.91
	1687	1688	-6.56535E-001	-2.32133E-005	0.00000E+000	-6.56500E-001	0.00000E+000	8	...........	1400.91
	1694	1695	-6.53014E-001	-2.29604E-005	0.00000E+000	-6.53000E-001	0.00000E+000	8	...........	1400.91
	1701	1702	-6.49522E-001	-2.26501E-005	0.00000E+000	-6.49500E-001	0.00000E+000	8	...........	1400.82
	1708	1709	-6.46013E-001	-2.23688E-005	0.00000E+000	-6.46000E-001	0.00000E+000	8	...........	1400.91
	1715	1716	-6.42520E-001	-2.20853E-005	0.00000E+000	-6.42500E-001	0.00000E+000	8	...........	1400.91
	1722	1723	-6.39018E-001	-2.18199E-005	0.00000E+000	-6.39000E-001	0.00000E+000	8	...........	1400.91
	1729	1730	-6.35516E-001	-2.15194E-005	0.00000E+000	-6.35500E-001	0.00000E+000	8	...........	1400.91
	1736	1737	-6.32023E-001	-2.12412E-005	0.00000E+000	-6.32000E-001	0.00000E+000	8	...........	1400.91
	1743	1744	-6.28519E-001	-2.09237E-005	0.00000E+000	-6.28500E-001	0.00000E+000	8	...........	1400.91
	1750	1751	-6.25015E-001	-2.06522E-005	0.00000E+000	-6.25000E-001	0.00000E+000	8	...........	1400.91
	1757	1758	-6.21512E-001	-2.03228E-005	0.00000E+000	-6.21500E-001	0.00000E+000	8	...........	1400.91
	1764	1765	-6.18019E-001	-2.00199E-005	0.00000E+000	-6.18000E-001	0.00000E+000	8	...........	1400.91
	1771	1772	-6.14518E-001	-1.97098E-005	0.00000E+000	-6.14500E-001	0.00000E+000	8	...........	1400.91
	1778	1779	-6.11028E-001	-1.93868E-005	0.00000E+000	-6.11000E-001	0.00000E+000	8	...........	1400.91
	1785	1786	-6.07524E-001	-1.90528E-005	0.00000E+000	-6.07500E-001	0.00000E+000	8	...........	1400.91
	1792	1793	-6.04027E-001	-1.87146E-005	0.00000E+000	-6.04000E-001	0.00000E+000	8	...........	1400.91
	1799	1800	-6.00506E-001	-1.83759E-005	0.00000E+000	-6.00500E-001	0.00000E+000	8	...........	1400.91
	1806	1807	-5.97017E-001	-1.80275E-005	0.00000E+000	-5.97000E-001	0.00000E+000	8	...........	1400.91
	1813	1814	-5.93514E-001	-1.76773E-005	0.00000E+000	-5.93500E-001	0.00000E+000	8	...........	1400.91
	1820	1821	-5.90012E-001	-1.73143E-005	0.00000E+000	-5.90000E-001	0.00000E+000	8	...........	1400.91
	1827	1828	-5.86508E-001	-1.69566E-005	0.00000E+000	-5.86500E-001	0.00000E+000	8	...........	1400.91
	1834	1835	-5.83022E-001	-1.66174E-005	0.00000E+000	-5.83000E-001	0.00000E+000	8	...........	1400.91
	1841	1842	-5.79519E-001	-1.62554E-005	0.00000E+000	-5.79500E-001	0.00000E+000	8	...........	1400.91
	1848	1849	-5.75998E-001	-1.59107E-005	0.00000E+000	-5.76000E-001	0.00000E+000	8	...........	1400.91
	1855	1856	-5.72513E-001	-1.55566E-005	0.00000E+000	-5.72500E-001	0.00000E+000	8	...........	1400.91
	1862	1863	-5.69007E-001	-1.52198E-005	0.00000E+000	-5.69000E-001	0.00000E+000	8	...........	1400.91
	1869	1870	-5.65521E-001	-1.48720E-005	0.00000E+000	-5.65500E-001	0.00000E+000	8	...........	1400.91
	1876	1877	-5.61999E-001	-1.45532E-005	0.00000E+000	-5.62000E-001	0.00000E+000	8	...........	1400.91
	1883	1884	-5.58514E-001	-1.42241E-005	0.00000E+000	-5.58500E-001	0.00000E+000	8	...........	1400.91
	1890	1891	-5.55007E-001	-1.38599E-005	0.00000E+000	-5.55000E-001	0.00000E+000	8	...........	1400.91
	1897	1898	-5.51515E-001	-1.35294E-005	0.00000E+000	-5.51500E-001	0.00000E+000	8	...........	1400.91
	1904	1905	-5.48000E-001	-1.32181E-005	0.00000E+000	-5.48000E-001	0.00000E+000	8	...........	1400.91
	1911	1912	-5.44501E-001	-1.28615E-005	0.00000E+000	-5.44500E-001	0.00000E+000	8	...........	1400.91
	1918	1919	-5.41003E-001	-1.25338E-005	0.00000E+000	-5.41000E-001	0.00000E+000	8	...........	1400.91
	1925	1926	-5.37489E-001	-1.21873E-005	0.00000E+000	-5.37500E-001	0.00000E+000	8	...........	1400.91
	1932	1933	-5.33998E-001	-1.18610E-005	0.00000E+000	-5.34000E-001	0.00000E+000	8	...........	1400.91
	1939	1940	-5.30494E-001	-1.15334E-005	0.00000E+000	-5.30500E-001	0.00000E+000	8	...........	1400.91
	1946	1947	-5.27012E-001	-1.11809E-005	0.00000E+000	-5.27000E-001	0.00000E+000	8	...........	1400.91
	1953	1954	-5.23485E-001	-1.08273E-005	0.00000E+000	-5.23500E-001	0.00000E+000	8	...........	1400.91
	1960	1961	-5.19995E-001	-1.05018E-005	0.00000E+000	-5.20000E-001	0.00000E+000	8	...........	1400.91
	1967	1968	-5.16495E-001	-1.01865E-005	0.00000E+000	-5.16500E-001	0.00000E+000	8	...........	1400.82
	1974	1975	-5.12989E-001	-9.86915E-006	0.00000E+000	-5.13000E-001	0.00000E+000	8	...........	1400.91
	1981	1982	-5.09482E-001	-9.52704E-006	0.00000E+000	-5.09500E-001	0.00000E+000	8	...........	1400.91
	1988	1989	-5.05996E-001	-9.20095E-006	0.00000E+000	-5.06000E-001	0.00000E+000	8	...........	1400.91
	1995	1996	-5.02494E-001	-8.89746E-006	0.00000E+000	-5.02500E-001	0.00000E+000	8	...........	1400.91
	2002	2003	-4.98968E-001	-8.59330E-006	0.00000E+000	-4.99000E-001	0.00000E+000	8	...........	1400.91
	2009	2010	-4.95481E-001	-8.27809E-006	0.00000E+000	-4.95500E-001	0.00000E+000	8	...........	1400.91
	2016	2017	-4.91974E-001	-7.97875E-006	0.00000E+000	-4.92000E-001	0.00000E+000	7	...........	1400.91
	2023	2024	-4.88470E-001	-7.70128E-006	0.00000E+000	-4.88500E-001	0.00000E+000	7	...........	1400.91
	2030	2031	-4.84958E-001	-7.41671E-006	0.00000E+000	-4.85000E-001	0.00000E+000	7	...........	1400.91
	2037	2038	-4.81479E-001	-7.14134E-006	0.00000E+000	-4.81500E-001	0.00000E+000	7	...........	1400.91
	2044	2045	-4.77979E-001	-6.85666E-006	0.00000E+000	-4.78000E-001	0.00000E+000	7	...........	1400.91
	2051	2052	-4.74482E-001	-6.62463E-006	0.00000E+000	-4.74500E-001	0.00000E+000	7	...........	1400.91
	2058	2059	-4.70977E-001	-6.35975E-006	0.00000E+000	-4.71000E-001	0.00000E+000	7	...........	1400.91
	2065	2066	-4.67480E-001	-6.10978E-006	0.00000E+000	-4.67500E-001	0.00000E+000	7	...........	1400.91
	2072	2073	-4.63980E-001	-5.84778E-006	0.00000E+000	-4.64000E-001	0.00000E+000	7	...........	1400.91
	2079	2080	-4.60468E-001	-5.61810E-006	0.00000E+000	-4.60500E-001	0.00000E+000	7	...........	1400.91
	2086	2087	-4.56969E-001	-5.35674E-006	0.00000E+000	-4.57000E-001	0.00000E+000	7	...........	1400.91
	2093	2094	-4.53480E-001	-5.11443E-006	0.00000E+000	-4.53500E-001	0.00000E+000	7	...........	1400.91
	2100	2101	-4.49979E-001	-4.88221E-006	0.00000E+000	-4.50000E-001	0.00000E+000	7	...........	1400.91
	2107	2108	-4.46461E-001	-4.66496E-006	0.00000E+000	-4.46500E-001	0.00000E+000	7	...........	1400.91
	2114	2115	-4.42966E-001	-4.43726E-006	0.00000E+000	-4.43000E-001	0.00000E+000	7	...........	1400.91
	2121	2122	-4.39467E-001	-4.23580E-006	0.00000E+000	-4.39500E-001	0.00000E+000	7	...........	1400.91
	2128	2129	-4.35973E-001	-4.01294E-006	0.00000E+000	-4.36000E-001	0.00000E+000	7	...........	1400.91
	2135	2136	-4.32457E-001	-3.82257E-006	0.00000E+000	-4.32500E-001	0.00000E+000	7	...........	1400.91
	2142	2143	-4.28966E-001	-3.61090E-006	0.00000E+000	-4.29000E-001	0.00000E+000	7	...........	1400.91
	2149	2150	-4.25470E-001	-3.42677E-006	0.00000E+000	-4.25500E-001	0.00000E+000	7	...........	1400.91
	2156	2157	-4.21952E-001	-3.23446E-006	0.00000E+000	-4.22000E-001	0.00000E+000	7	...........	1400.91
	2163	2164	-4.18452E-001	-3.03924E-006	0.00000E+000	-4.18500E-001	0.00000E+000	7	...........	1400.91
	2170	2171	-4.14960E-001	-2.85878E-006	0.00000E+000	-4.15000E-001	0.00000E+000	7	...........	1400.91
	2177	2178	-4.11464E-001	-2.68785E-006	0.00000E+000	-4.11500E-001	0.00000E+000	7	...........	1400.91
	2184	2185	-4.07960E-001	-2.52880E-006	0.00000E+000	-4.08000E-001	0.00000E+000	7	...........	1400.91
	2191	2192	-4.04455E-001	-2.35400E-006	0.00000E+000	-4.04500E-001	0.00000E+000	7	...........	1400.91
	2198	2199	-4.00969E-001	-2.19179E-006	0.00000E+000	-4.01000E-001	0.00000E+000	7	...........	1400.91
	2205	2206	-3.97475E-001	-2.03513E-006	0.00000E+000	-3.97500E-001	0.00000E+000	7	...........	1400.91
	2212	2213	-3.93961E-001	-1.89152E-006	0.00000E+000	-3.94000E-001	0.00000E+000	7	...........	1400.91
	2219	2220	-3.90452E-001	-1.74670E-006	0.00000E+000	-3.90500E-001	0.00000E+000	7	...........	1400.91
	2226	2227	-3.86954E-001	-1.61903E-006	0.00000E+000	-3.87000E-001	0.00000E+000	7	...........	1400.91
	2233	2234	-3.83446E-001	-1.48187E-006	0.00000E+000	-3.83500E-001	0.00000E+000	7	...........	1400.91
	2240	2241	-3.79954E-001	-1.34886E-006	0.00000E+000	-3.80000E-001	0.00000E+000	7	...........	1400.91
	2247	2248	-3.76453E-001	-1.23695E-006	0.00000E+000	-3.76500E-001	0.00000E+000	7	...........	1400.91
	2254	2255	-3.72964E-001	-1.09117E-006	0.00000E+000	-3.73000E-001	0.00000E+000	7	...........	1400.91
	2261	2262	-3.69456E-001	-9.71557E-007	0.00000E+000	-3.69500E-001	0.00000E+000	7	...........	1400.91
	2268	2269	-3.65948E-001	-8.86597E-007	0.00000E+000	-3.66000E-001	0.00000E+000	7	...........	1400.91
	2275	2276	-3.62448E-001	-7.66922E-007	0.00000E+000	-3.62500E-001	0.00000E+000	7	...........	1400.82
	2282	2283	-3.58939E-001	-6.86321E-007	0.00000E+000	-3.59000E-001	0.00000E+000	6	....ih.....	1400.91
	2289	2290	-3.55450E-001	-5.65745E-007	0.00000E+000	-3.55500E-001	0.00000E+000	7	...........	1400.82
	2296	2297	-3.51936E-001	-4.69986E-007	0.00000E+000	-3.52000E-001	0.00000E+000	6	....ih.....	1400.82
	2303	2304	-3.48455E-001	-3.76062E-007	0.00000E+000	-3.48500E-001	0.00000E+000	7	...........	1400.91
	2310	2311	-3.44926E-001	-2.76531E-007	0.00000E+000	-3.45000E-001	0.00000E+000	6	...........	1400.91
	2317	2318	-3.41427E-001	-1.90825E-007	0.00000E+000	-3.41500E-001	0.00000E+000	6	...........	1400.82
	2324	2325	-3.37933E-001	-1.15350E-007	0.00000E+000	-3.38000E-001	0.00000E+000	6	...........	1400.91
	2331	2332	-3.34436E-001	-2.86476E-008	0.00000E+000	-3.34500E-001	0.00000E+000	5	....ih.....	1400.82
	2338	2339	-3.30920E-001	4.97528E-008	0.00000E+000	-3.31000E-001	0.00000E+000	6	...........	1400.65
	2345	2346	-3.27438E-001	1.30959E-007	0.00000E+000	-3.27500E-001	0.00000E+000	6	...........	1400.91
	2352	2353	-3.23930E-001	1.91475E-007	0.00000E+000	-3.24000E-001	0.00000E+000	6	...........	1400.91
	2359	2360	-3.20439E-001	2.63646E-007	0.00000E+000	-3.20500E-001	0.00000E+000	7	...........	1400.91
	2366	2367	-3.16925E-001	3.38204E-007	0.00000E+000	-3.17000E-001	0.00000E+000	6	....ih.....	1400.91
	2373	2374	-3.13418E-001	3.98906E-007	0.00000E+000	-3.13500E-001	0.00000E+000	7	...........	1400.82
	2380	2381	-3.09934E-001	4.59369E-007	0.00000E+000	-3.10000E-001	0.00000E+000	6	....ih.....	1400.82
	2387	2388	-3.06406E-001	5.20045E-007	0.00000E+000	-3.06500E-001	0.00000E+000	7	...........	1400.73
	2394	2395	-3.02928E-001	5.76385E-007	0.00000E+000	-3.03000E-001	0.00000E+000	6	....ih.....	1400.82
	2401	2402	-2.99422E-001	6.30984E-007	0.00000E+000	-2.99500E-001	0.00000E+000	7	...........	1400.73
	2408	2409	-2.95934E-001	6.70088E-007	0.00000E+000	-2.96000E-001	0.00000E+000	6	....ih.....	1400.82
	2415	2416	-2.92416E-001	7.27961E-007	0.00000E+000	-2.92500E-001	0.00000E+000	7	...........	1400.73
	2422	2423	-2.88923E-001	7.63064E-007	0.00000E+000	-2.89000E-001	0.00000E+000	6	....ih.....	1400.91
	2429	2430	-2.85413E-001	8.10536E-007	0.00000E+000	-2.85500E-001	0.00000E+000	7	...........	1400.82
	2436	2437	-2.81906E-001	8.69418E-007	0.00000E+000	-2.82000E-001	0.00000E+000	7	...........	1400.82
	2443	2444	-2.78415E-001	9.14137E-007	0.00000E+000	-2.78500E-001	0.00000E+000	7	...........	1400.91
	2450	2451	-2.74925E-001	9.39803E-007	0.00000E+000	-2.75000E-001	0.00000E+000	7	...........	1400.91
	2457	2458	-2.71432E-001	1.00130E-006	0.00000E+000	-2.71500E-001	0.00000E+000	7	...........	1400.82
	2464	2465	-2.67922E-001	1.03207E-006	0.00000E+000	-2.68000E-001	0.00000E+000	7	...........	1400.91
	2471	2472	-2.64426E-001	1.07683E-006	0.00000E+000	-2.64500E-001	0.00000E+000	7	...........	1400.82
	2478	2479	-2.60923E-001	1.10405E-006	0.00000E+000	-2.61000E-001	0.00000E+000	7	...........	1400.82
	2485	2486	-2.57424E-001	1.14230E-006	0.00000E+000	-2.57500E-001	0.00000E+000	7	...........	1400.91
	2492	2493	-2.53919E-001	1.15625E-006	0.00000E+000	-2.54000E-001	0.00000E+000	7	...........	1400.82
	2499	2500	-2.50427E-001	1.19033E-006	0.00000E+000	-2.50500E-001	0.00000E+000	7	...........	1400.82
	2506	2507	-2.46914E-001	1.23184E-006	0.00000E+000	-2.47000E-001	0.00000E+000	7	...........	1400.82
	2513	2514	-2.43441E-001	1.25764E-006	0.00000E+000	-2.43500E-001	0.00000E+000	7	...........	1400.91
	2520	2521	-2.39900E-001	1.27816E-006	0.00000E+000	-2.40000E-001	0.00000E+000	7	...........	1401.00
	2527	2528	-2.36399E-001	1.30772E-006	0.00000E+000	-2.36500E-001	0.00000E+000	7	...........	1401.00
	2534	2535	-2.32896E-001	1.32902E-006	0.00000E+000	-2.33000E-001	0.00000E+000	7	...........	1401.00
	2541	2542	-2.29399E-001	1.33066E-006	0.00000E+000	-2.29500E-001	0.00000E+000	7	...........	1401.00
	2548	2549	-2.25900E-001	1.35538E-006	0.00000E+000	-2.26000E-001	0.00000E+000	7	...........	1401.00
	2555	2556	-2.22401E-001	1.39060E-006	0.00000E+000	-2.22500E-001	0.00000E+000	7	...........	1401.00
	2562	2563	-2.18897E-001	1.40680E-006	0.00000E+000	-2.19000E-001	0.00000E+000	7	...........	1401.00
	2569	2570	-2.15393E-001	1.42231E-006	0.00000E+000	-2.15500E-001	0.00000E+000	7	...........	1401.00
	2576	2577	-2.11892E-001	1.43021E-006	0.00000E+000	-2.12000E-001	0.00000E+000	7	...........	1401.00
	2583	2584	-2.08392E-001	1.45209E-006	0.00000E+000	-2.08500E-001	0.00000E+000	7	...........	1401.00
	2590	2591	-2.04891E-001	1.46403E-006	0.00000E+000	-2.05000E-001	0.00000E+000	7	...........	1401.00
	2597	2598	-2.01394E-001	1.48761E-006	0.00000E+000	-2.01500E-001	0.00000E+000	7	...........	1401.00
	2604	2605	-1.97893E-001	1.47035E-006	0.00000E+000	-1.98000E-001	0.00000E+000	7	...........	1401.00
	2611	2612	-1.94388E-001	1.48014E-006	0.00000E+000	-1.94500E-001	0.00000E+000	7	...........	1401.00
	2618	2619	-1.90885E-001	1.48544E-006	0.00000E+000	-1.91000E-001	0.00000E+000	7	...........	1401.00
	2625	2626	-1.87382E-001	1.49598E-006	0.00000E+000	-1.87500E-001	0.00000E+000	7	...........	1401.00
	2632	2633	-1.83882E-001	1.51068E-006	0.00000E+000	-1.84000E-001	0.00000E+000	7	...........	1401.00
	2639	2640	-1.80385E-001	1.51714E-006	0.00000E+000	-1.80500E-001	0.00000E+000	7	...........	1401.08
	2646	2647	-1.76885E-001	1.53093E-006	0.00000E+000	-1.77000E-001	0.00000E+000	7	...........	1401.00
	2653	2654	-1.73386E-001	1.53133E-006	0.00000E+000	-1.73500E-001	0.00000E+000	7	...........	1401.00
	2660	2661	-1.69883E-001	1.52553E-006	0.00000E+000	-1.70000E-001	0.00000E+000	7	...........	1401.00
	2667	2668	-1.66380E-001	1.52900E-006	0.00000E+000	-1.66500E-001	0.00000E+000	7	...........	1401.00
	2674	2675	-1.62878E-001	1.52730E-006	0.00000E+000	-1.63000E-001	0.00000E+000	7	...........	1401.08
	2681	2682	-1.59377E-001	1.54336E-006	0.00000E+000	-1.59500E-001	0.00000E+000	7	...........	1401.08
	2688	2689	-1.55874E-001	1.53590E-006	0.00000E+000	-1.56000E-001	0.00000E+000	7	...........	1401.08
	2695	2696	-1.52377E-001	1.53278E-006	0.00000E+000	-1.52500E-001	0.00000E+000	7	...........	1401.08
	2702	2703	-1.48876E-001	1.53770E-006	0.00000E+000	-1.49000E-001	0.00000E+000	7	...........	1401.08
	2709	2710	-1.45374E-001	1.54424E-006	0.00000E+000	-1.45500E-001	0.00000E+000	7	...........	1401.08
	2716	2717	-1.41875E-001	1.52811E-006	0.00000E+000	-1.42000E-001	0.00000E+000	7	...........	1401.08
	2723	2724	-1.38370E-001	1.53053E-006	0.00000E+000	-1.38500E-001	0.00000E+000	7	...........	1401.08
	2730	2731	-1.34868E-001	1.54024E-006	0.00000E+000	-1.35000E-001	0.00000E+000	7	...........	1401.08
	2737	2738	-1.31366E-001	1.52944E-006	0.00000E+000	-1.31500E-001	0.00000E+000	7	...........	1401.08
	2744	2745	-1.27868E-001	1.53974E-006	0.00000E+000	-1.28000E-001	0.00000E+000	7	...........	1401.08
	2751	2752	-1.24370E-001	1.51168E-006	0.00000E+000	-1.24500E-001	0.00000E+000	7	...........	1401.08
	2758	2759	-1.20870E-001	1.53063E-006	0.00000E+000	-1.21000E-001	0.00000E+000	7	...........	1401.08
	2765	2766	-1.17369E-001	1.52510E-006	0.00000E+000	-1.17500E-001	0.00000E+000	7	...........	1401.00
	2772	2773	-1.13866E-001	1.51532E-006	0.00000E+000	-1.14000E-001	0.00000E+000	7	...........	1401.08
	2779	2780	-1.10364E-001	1.51270E-006	0.00000E+000	-1.10500E-001	0.00000E+000	7	...........	1401.08
	2786	2787	-1.06860E-001	1.50898E-006	0.00000E+000	-1.07000E-001	0.00000E+000	7	...........	1401.08
	2793	2794	-1.03361E-001	1.51650E-006	0.00000E+000	-1.03500E-001	0.00000E+000	7	...........	1401.08
	2800	2801	-9.98643E-002	1.50520E-006	0.00000E+000	-1.00000E-001	0.00000E+000	7	...........	1401.08
	2807	2808	-9.63701E-002	1.50725E-006	0.00000E+000	-9.65001E-002	0.00000E+000	7	...........	1401.08
	2814	2815	-9.28685E-002	1.50941E-006	0.00000E+000	-9.30001E-002	0.00000E+000	7	...........	1401.08
	2821	2822	-8.93626E-002	1.48707E-006	0.00000E+000	-8.95001E-002	0.00000E+000	7	...........	1401.08
	2828	2829	-8.58610E-002	1.48744E-006	0.00000E+000	-8.60001E-002	0.00000E+000	7	...........	1401.08
	2835	2836	-8.23581E-002	1.49215E-006	0.00000E+000	-8.25000E-002	0.00000E+000	7	...........	1401.08
	2842	2843	-7.88573E-002	1.48852E-006	0.00000E+000	-7.90001E-002	0.00000E+000	7	...........	1401.08
	2849	2850	-7.53598E-002	1.47753E-006	0.00000E+000	-7.55001E-002	0.00000E+000	7	...........	1401.08
	2856	2857	-7.18683E-002	1.47978E-006	0.00000E+000	-7.20001E-002	0.00000E+000	7	...........	1401.08
	2863	2864	-6.83646E-002	1.47814E-006	0.00000E+000	-6.85000E-002	0.00000E+000	7	...........	1401.08
	2870	2871	-6.48620E-002	1.47624E-006	0.00000E+000	-6.50001E-002	0.00000E+000	7	...........	1401.08
	2877	2878	-6.13576E-002	1.47388E-006	0.00000E+000	-6.15001E-002	0.00000E+000	7	...........	1401.08
	2884	2885	-5.78564E-002	1.47558E-006	0.00000E+000	-5.80001E-002	0.00000E+000	7	...........	1401.08
	2891	2892	-5.43567E-002	1.48055E-006	0.00000E+000	-5.45000E-002	0.00000E+000	7	...........	1401.08
	2898	2899	-5.08540E-002	1.46929E-006	0.00000E+000	-5.10001E-002	0.00000E+000	7	...........	1401.08
	2905	2906	-4.73553E-002	1.46108E-006	0.00000E+000	-4.75001E-002	0.00000E+000	7	...........	1401.08
	2912	2913	-4.38561E-002	1.46800E-006	0.00000E+000	-4.40001E-002	0.00000E+000	7	...........	1401.08
	2919	2920	-4.03538E-002	1.46457E-006	0.00000E+000	-4.05000E-002	0.00000E+000	7	...........	1401.08
	2926	2927	-3.68475E-002	1.46226E-006	0.00000E+000	-3.70001E-002	0.00000E+000	7	...........	1401.08
	2933	2934	-3.33480E-002	1.46692E-006	0.00000E+000	-3.35001E-002	0.00000E+000	7	...........	1401.08
	2940	2941	-2.98435E-002	1.46510E-006	0.00000E+000	-3.00001E-002	0.00000E+000	7	...........	1401.08
	2947	2948	-2.63430E-002	1.46972E-006	0.00000E+000	-2.65000E-002	0.00000E+000	7	...........	1401.08
	2954	2955	-2.28766E-002	1.46508E-006	0.00000E+000	-2.30001E-002	0.00000E+000	7	...........	1401.26
	2961	2962	-1.93736E-002	1.47299E-006	0.00000E+000	-1.95001E-002	0.00000E+000	7	...........	1401.26
	2968	2969	-1.58656E-002	1.46815E-006	0.00000E+000	-1.60001E-002	0.00000E+000	7	...........	1401.26
	2975	2976	-1.23555E-002	1.46509E-006	0.00000E+000	-1.25000E-002	0.00000E+000	7	...........	1401.26
	2982	2983	-8.84737E-003	1.46629E-006	0.00000E+000	-9.00006E-003	0.00000E+000	7	...........	1401.26
	2989	2990	-5.34184E-003	1.46786E-006	0.00000E+000	-5.50008E-003	0.00000E+000	7	...........	1401.26
	2996	2997	-1.83380E-003	1.47058E-006	0.00000E+000	-2.00009E-003	0.00000E+000	7	...........	1401.26
	3003	3004	1.66684E-003	1.46877E-006	0.00000E+000	1.49995E-003	0.00000E+000	7	...........	1401.26
	3010	3011	5.17537E-003	1.47165E-006	0.00000E+000	4.99994E-003	0.00000E+000	7	...........	1401.26
	3017	3018	8.68297E-003	1.47414E-006	0.00000E+000	8.49992E-003	0.00000E+000	7	...........	1401.26
	3024	3025	1.21923E-002	1.47914E-006	0.00000E+000	1.19999E-002	0.00000E+000	7	...........	1401.26
	3031	3032	1.57008E-002	1.47604E-006	0.00000E+000	1.54999E-002	0.00000E+000	7	...........	1401.26
	3038	3039	1.92079E-002	1.47439E-006	0.00000E+000	1.89999E-002	0.00000E+000	7	...........	1401.26
	3045	3046	2.27138E-002	1.48304E-006	0.00000E+000	2.24999E-002	0.00000E+000	7	...........	1401.26
	3052	3053	2.62204E-002	1.47704E-006	0.00000E+000	2.59999E-002	0.00000E+000	7	...........	1401.26
	3059	3060	2.96809E-002	1.48942E-006	0.00000E+000	2.94999E-002	0.00000E+000	7	...........	1401.08
	3066	3067	3.31805E-002	1.48697E-006	0.00000E+000	3.29999E-002	0.00000E+000	7	...........	1401.08
	3073	3074	3.66853E-002	1.49026E-006	0.00000E+000	3.64999E-002	0.00000E+000	7	...........	1401.08
	3080	3081	4.01905E-002	1.49186E-006	0.00000E+000	3.99999E-002	0.00000E+000	7	...........	1401.08
	3087	3088	4.36918E-002	1.49498E-006	0.00000E+000	4.34999E-002	0.00000E+000	7	...........	1401.08
	3094	3095	4.71927E-002	1.50066E-006	0.00000E+000	4.69999E-002	0.00000E+000	7	...........	1401.08
	3101	3102	5.06928E-002	1.49758E-006	0.00000E+000	5.04999E-002	0.00000E+000	7	...........	1401.08
	3108	3109	5.41924E-002	1.49970E-006	0.00000E+000	5.39999E-002	0.00000E+000	7	...........	1401.08
	3115	3116	5.76926E-002	1.50051E-006	0.00000E+000	5.74999E-002	0.00000E+000	7	...........	1401.08
	3122	3123	6.11968E-002	1.51187E-006	0.00000E+000	6.09999E-002	0.00000E+000	7	...........	1401.08
	3129	3130	6.46986E-002	1.50727E-006	0.00000E+000	6.44999E-002	0.00000E+000	7	...........	1401.08
	3136	3137	6.82022E-002	1.50727E-006	0.00000E+000	6.79999E-002	0.00000E+000	7	...........	1401.08
	3143	3144	7.17026E-002	1.51058E-006	0.00000E+000	7.14999E-002	0.00000E+000	7	...........	1401.08
	3150	3151	7.52040E-002	1.51625E-006	0.00000E+000	7.49999E-002	0.00000E+000	7	...........	1401.08
	3157	3158	7.87027E-002	1.51744E-006	0.00000E+000	7.84999E-002	0.00000E+000	7	...........	1401.08
	3164	3165	8.22005E-002	1.52283E-006	0.00000E+000	8.19999E-002	0.00000E+000	7	...........	1401.08
	3171	3172	8.57029E-002	1.52555E-006	0.00000E+000	8.54999E-002	0.00000E+000	7	...........	1401.08
	3178	3179	8.92053E-002	1.52391E-006	0.00000E+000	8.89999E-002	0.00000E+000	7	...........	1401.08
	3185	3186	9.27092E-002	1.52354E-006	0.00000E+000	9.24999E-002	0.00000E+000	7	...........	1401.08
	3192	3193	9.62088E-002	1.52723E-006	0.00000E+000	9.59999E-002	0.00000E+000	7	...........	1401.17
	3199	3200	9.97127E-002	1.53076E-006	0.00000E+000	9.94999E-002	0.00000E+000	7	...........	1401.08
	3206	3207	1.03208E-001	1.53189E-006	0.00000E+000	1.03000E-001	0.00000E+000	7	...........	1401.17
	3213	3214	1.06711E-001	1.54202E-006	0.00000E+000	1.06500E-001	0.00000E+000	7	...........	1401.08
	3220	3221	1.10204E-001	1.53312E-006	0.00000E+000	1.10000E-001	0.00000E+000	7	...........	1401.17
	3227	3228	1.13708E-001	1.53962E-006	0.00000E+000	1.13500E-001	0.00000E+000	7	...........	1401.08
	3234	3235	1.17209E-001	1.54363E-006	0.00000E+000	1.17000E-001	0.00000E+000	7	...........	1401.17
	3241	3242	1.20713E-001	1.54243E-006	0.00000E+000	1.20500E-001	0.00000E+000	7	...........	1401.17
	3248	3249	1.24213E-001	1.54827E-006	0.00000E+000	1.24000E-001	0.00000E+000	7	...........	1401.17
	3255	3256	1.25715E-001	1.52159E-006	0.00000E+000	1.25500E-001	0.00000E+000	7	...........	1401.17
	3262	3263	1.22213E-001	1.40946E-006	0.00000E+000	1.22000E-001	0.00000E+000	7	...........	1401.17
	3269	3270	1.18712E-001	1.31382E-006	0.00000E+000	1.18500E-001	0.00000E+000	7	...........	1401.17
	3276	3277	1.15205E-001	1.22709E-006	0.00000E+000	1.15000E-001	0.00000E+000	7	...........	1401.17